Folder: YBCO/Data/As Grown

Note: README.md
# YBCO

This is the archive containing the data and analysis that eventually was published as an article you can find here: https://pubs.acs.org/doi/10.1021/acsami.9b18820

DOI: 10.1021/acsami.9b18820

Please cite the article above if you use any results here.

File: As Deposited XRD.xy
10	9
10.31	8
10.62	7
10.93	8
11.24	7
11.55	5
11.86	7
12.17	4
12.48	5
12.79	6
13.1	5
13.41	4
13.72	5
14.03	4
14.34	12
14.65	10
14.96	15
15.27	15
15.58	7
15.89	8
16.2	8
16.51	6
16.82	11
17.13	9
17.44	6
17.75	7
18.06	6
18.37	3
18.68	7
18.99	5
19.3	7
19.61	7
19.92	5
20.23	8
20.54	7
20.85	5
21.16	8
21.47	9
21.78	10
22.09	8
22.4	12
22.71	196
23.02	24
23.33	9
23.64	6
23.95	5
24.26	5
24.57	4
24.88	10
25.19	4
25.5	7
25.81	8
26.12	6
26.43	4
26.74	11
27.05	3
27.36	7
27.67	10
27.98	8
28.29	2
28.6	9
28.91	3
29.22	8
29.53	4
29.84	3
30.15	4
30.46	8
30.77	8
31.08	6
31.39	5
31.7	4
32.01	5
32.32	3
32.63	5
32.94	5
33.25	5
33.56	11
33.87	8
34.18	4
34.49	5
34.8	10
35.11	3
35.42	2
35.73	7
36.04	4
36.35	5
36.66	3
36.97	6
37.28	8
37.59	8
37.9	10
38.21	8
38.52	83
38.83	20
39.14	8
39.45	7
39.76	6
40.07	5
40.38	5
40.69	4
41	6
41.31	3
41.62	5
41.93	4
42.24	2
42.55	4
42.86	4
43.17	4
43.48	8
43.79	2
44.1	6
44.41	6
44.72	12
45.03	2
45.34	7
45.65	18
45.96	14
46.27	81
46.58	931
46.89	44
47.2	6
47.51	7
47.82	4
48.13	1
48.44	7
48.75	5
49.06	7
49.37	5
49.68	4
49.99	3
50.3	9
50.61	8
50.92	5
51.23	7
51.54	6
51.85	2
52.16	3
52.47	4
52.78	3
53.09	7
53.4	5
53.71	4
54.02	5
54.33	5
54.64	10
54.95	14
55.26	3
55.57	3
55.88	4
56.19	5
56.5	5
56.81	7
57.12	8
57.43	5
57.74	7
58.05	3
58.36	2
58.67	8
58.98	3
59.29	4
59.6	3
59.91	7
60.22	6
60.53	2
60.84	7
61.15	7
61.46	9
61.77	8
62.08	3
62.39	5
62.7	4
63.01	5
63.32	6
63.63	3
63.94	8
64.25	1
64.56	6
64.87	10
65.18	2
65.49	3
65.8	2
66.11	3
66.42	2
66.73	6
67.04	4
67.35	8
67.66	5
67.97	6
68.28	2
68.59	6
68.9	6
69.21	4
69.52	4
69.83	6
70.14	3
70.45	4
70.76	2
71.07	4
71.38	4
71.69	7
72	3
72.31	7
72.62	247
72.93	6
73.24	1
73.55	3
73.86	4
74.17	7
74.48	3
74.79	5
75.1	9
75.41	6
75.72	6
76.03	5
76.34	6
76.65	6
76.96	5
77.27	4
77.58	12
77.89	3
78.2	1
78.51	5
78.82	3
79.13	9
79.44	3
79.75	10
80.06	6
80.37	4
80.68	3
80.99	4
81.3	3
81.61	6
81.92	5
82.23	7
82.54	5
82.85	6
83.16	4
83.47	6
83.78	3
84.09	4
84.4	4
84.71	5
85.02	6
85.33	4
85.64	5
85.95	1
86.26	5
86.57	5
86.88	6
87.19	2
87.5	3
87.81	4
88.12	2
88.43	3
88.74	7
89.05	2
89.36	5
89.67	3
89.98	3
90.29	6
90.6	8
90.91	4
91.22	4
91.53	6
91.84	1
92.15	3
92.46	6
92.77	11
93.08	3
93.39	4
93.7	1
94.01	6
94.32	2
94.63	5
94.94	6
95.25	4
95.56	3
95.87	5
96.18	5
96.49	3
96.8	5
97.11	4
97.42	5
97.73	5
98.04	4
98.35	7
98.66	1
98.97	11
99.28	4
99.59	2
99.9	6
100	3