Folder: YBCO/Data/Combined Datasets

Note: README.md
# YBCO

This is the archive containing the data and analysis that eventually was published as an article you can find here: https://pubs.acs.org/doi/10.1021/acsami.9b18820

DOI: 10.1021/acsami.9b18820

Please cite the article above if you use any results here.

File: XRD.csv
AsGrown,2theta,Intensity,2Theta,Intensity,2Theta,YBCO_Gd20nm,2theta,YBCO_Ta20nm,2theta
,As Grown,,Gd (3 nm),,Gd (7 nm),,Gd (20 nm),,Ta (20 nm)
10,2,10,10,10,4,9.975,28,10,2.56
10.33,4,10.33,14,10.33,11,10.305,29,10.33,0
10.66,3,10.66,11,10.66,13,10.635,27,10.66,5.12
10.99,2,10.99,5,10.99,6,10.965,20,10.99,2.56
11.32,1,11.32,10,11.32,5,11.295,18,11.32,5.12
11.65,2,11.65,11,11.65,7,11.625,17,11.65,5.12
11.98,3,11.98,10,11.98,7,11.955,13,11.98,2.56
12.31,5,12.31,5,12.31,4,12.285,19,12.31,2.56
12.64,2,12.64,6,12.64,5,12.615,20,12.64,2.56
12.97,3,12.97,9,12.97,4,12.945,20,12.97,7.68
13.3,5,13.3,7,13.3,8,13.275,23,13.3,5.12
13.63,1,13.63,11,13.63,5,13.605,37,13.63,5.12
13.96,1,13.96,9,13.96,8,13.935,93,13.96,7.68
14.29,5,14.29,13,14.29,9,14.265,339,14.29,10.24
14.62,4,14.62,13,14.62,26,14.595,371,14.62,17.92
14.95,19,14.95,58,14.95,66,14.925,110,14.95,69.12
15.28,40,15.28,46,15.28,27,15.255,52,15.28,46.08
15.61,1,15.61,18,15.61,5,15.585,28,15.61,7.68
15.94,1,15.94,11,15.94,7,15.915,28,15.94,2.56
16.27,0,16.27,6,16.27,11,16.245,31,16.27,0
16.6,1,16.6,7,16.6,7,16.575,9,16.6,2.56
16.93,0,16.93,7,16.93,5,16.905,18,16.93,10.24
17.26,1,17.26,9,17.26,7,17.235,18,17.26,5.12
17.59,0,17.59,8,17.59,10,17.565,14,17.59,0
17.92,2,17.92,8,17.92,5,17.895,4,17.92,5.12
18.25,0,18.25,10,18.25,7,18.225,17,18.25,0
18.58,0,18.58,10,18.58,4,18.555,10,18.58,5.12
18.91,0,18.91,7,18.91,8,18.885,11,18.91,0
19.24,0,19.24,7,19.24,10,19.215,9,19.24,0
19.57,2,19.57,5,19.57,8,19.545,13,19.57,0
19.9,2,19.9,6,19.9,4,19.875,8,19.9,5.12
20.23,0,20.23,6,20.23,2,20.205,14,20.23,5.12
20.56,123,20.56,6,20.56,3,20.535,295,20.56,0
20.89,3,20.89,5,20.89,5,20.865,24,20.89,0
21.22,4,21.22,6,21.22,6,21.195,45,21.22,0
21.55,5,21.55,7,21.55,8,21.525,72,21.55,10.24
21.88,6,21.88,9,21.88,15,21.855,138,21.88,20.48
22.21,26,22.21,21,22.21,21,22.185,321,22.21,0
22.54,181,22.54,84,22.54,75,22.515,1459,22.54,87.04
22.87,3512,22.87,263,22.87,147,22.845,280854,22.87,460.8
23.2,74,23.2,35,23.2,24,23.175,1059,23.2,30.72
23.53,21,23.53,19,23.53,27,23.505,308,23.53,30.72
23.86,9,23.86,18,23.86,11,23.835,204,23.86,30.72
24.19,7,24.19,15,24.19,16,24.165,158,24.19,20.48
24.52,6,24.52,18,24.52,8,24.495,120,24.52,10.24
24.85,6,24.85,14,24.85,9,24.825,92,24.85,15.36
25.18,6,25.18,6,25.18,8,25.155,59,25.18,10.24
25.51,2,25.51,11,25.51,15,25.485,37,25.51,5.12
25.84,1,25.84,9,25.84,5,25.815,45,25.84,5.12
26.17,4,26.17,8,26.17,7,26.145,29,26.17,5.12
26.5,0,26.5,11,26.5,8,26.475,28,26.5,10.24
26.83,3,26.83,12,26.83,11,26.805,37,26.83,0
27.16,1,27.16,5,27.16,8,27.135,34,27.16,0
27.49,1,27.49,9,27.49,8,27.465,19,27.49,10.24
27.82,4,27.82,5,27.82,4,27.795,27,27.82,0
28.15,1,28.15,15,28.15,11,28.125,32,28.15,0
28.48,3,28.48,9,28.48,9,28.455,44,28.48,0
28.81,1,28.81,9,28.81,7,28.785,29,28.81,5.12
29.14,1,29.14,12,29.14,5,29.115,25,29.14,5.12
29.47,3,29.47,14,29.47,8,29.445,26,29.47,0
29.8,2,29.8,9,29.8,4,29.775,15,29.8,5.12
30.13,1,30.13,4,30.13,9,30.105,12,30.13,5.12
30.46,21,30.46,162,30.46,48,30.435,38,30.46,30.72
30.79,11,30.79,20,30.79,15,30.765,73,30.79,10.24
31.12,2,31.12,5,31.12,7,31.095,59,31.12,15.36
31.45,3,31.45,8,31.45,10,31.425,49,31.45,20.48
31.78,1,31.78,8,31.78,4,31.755,56,31.78,10.24
32.11,2,32.11,9,32.11,6,32.085,37,32.11,5.12
32.44,0,32.44,5,32.44,6,32.415,40,32.44,15.36
32.77,2,32.77,8,32.77,7,32.745,37,32.77,10.24
33.1,3,33.1,7,33.1,8,33.075,39,33.1,10.24
33.43,5,33.43,18,33.43,8,33.405,63,33.43,20.48
33.76,10,33.76,29,33.76,11,33.735,105,33.76,15.36
34.09,3,34.09,16,34.09,16,34.065,51,34.09,10.24
34.42,5,34.42,14,34.42,12,34.395,36,34.42,10.24
34.75,9,34.75,8,34.75,12,34.725,37,34.75,5.12
35.08,2,35.08,12,35.08,5,35.055,37,35.08,0
35.41,9,35.41,7,35.41,7,35.385,36,35.41,15.36
35.74,1,35.74,7,35.74,7,35.715,35,35.74,10.24
36.07,3,36.07,12,36.07,7,36.045,60,36.07,10.24
36.4,1,36.4,12,36.4,9,36.375,60,36.4,10.24
36.73,4,36.73,16,36.73,12,36.705,69,36.73,20.48
37.06,3,37.06,9,37.06,8,37.035,61,37.06,5.12
37.39,4,37.39,13,37.39,11,37.365,90,37.39,10.24
37.72,4,37.72,28,37.72,21,37.695,130,37.72,40.96
38.05,15,38.05,68,38.05,61,38.025,225,38.05,46.08
38.38,396,38.38,2038,38.38,456,38.355,464,38.38,583.68
38.71,70,38.71,75,38.71,43,38.685,268,38.71,92.16
39.04,13,39.04,27,39.04,10,39.015,124,39.04,30.72
39.37,4,39.37,12,39.37,13,39.345,54,39.37,10.24
39.7,3,39.7,10,39.7,10,39.675,27,39.7,0
40.03,3,40.03,12,40.03,7,40.005,30,40.03,0
40.36,1,40.36,12,40.36,6,40.335,22,40.36,0
40.69,1,40.69,8,40.69,0,40.665,28,40.69,5.12
41.02,3,41.02,8,41.02,6,40.995,19,41.02,5.12
41.35,1,41.35,17,41.35,7,41.325,32,41.35,10.24
41.68,24,41.68,4,41.68,5,41.655,105,41.68,0
42.01,15,42.01,10,42.01,8,41.985,127,42.01,5.12
42.34,6,42.34,10,42.34,2,42.315,94,42.34,0
42.67,19,42.67,6,42.67,9,42.645,83,42.67,10.24
43,4,43,6,43,11,42.975,98,43,0
43.33,9,43.33,10,43.33,6,43.305,88,43.33,0
43.66,13,43.66,11,43.66,3,43.635,127.0588,43.66,5.12
43.99,7,43.99,3,43.99,6,43.965,124.9412,43.99,0
44.32,26,44.32,17,44.32,7,44.295,169.4118,44.32,0
44.65,19,44.65,11,44.65,8,44.625,224.4706,44.65,5.12
44.98,49,44.98,13,44.98,14,44.955,399.1765,44.98,5.12
45.31,116,45.31,24,45.31,8,45.285,754.9412,45.31,0
45.64,288,45.64,39,45.64,18,45.615,1847.647,45.64,10.24
45.97,732,45.97,64,45.97,47,45.945,5784.353,45.97,35.84
46.3,7962,46.3,831,46.3,631,46.275,75534.35,46.3,158.72
46.63,148724,46.63,715,46.63,400,46.605,4785025,46.63,747.52
46.96,1528,46.96,53,46.96,47,46.935,19750.23,46.96,25.6
47.29,480,47.29,24,47.29,13,47.265,6835.765,47.29,20.48
47.62,156,47.62,16,47.62,9,47.595,2174.823,47.62,5.12
47.95,68,47.95,16,47.95,5,47.925,950.8235,47.95,5.12
48.28,51,48.28,7,48.28,1,48.255,499.7647,48.28,0
48.61,36,48.61,11,48.61,4,48.585,350.4706,48.61,15.36
48.94,16,48.94,12,48.94,11,48.915,245.6471,48.94,0
49.27,10,49.27,13,49.27,9,49.245,209.6471,49.27,5.12
49.6,17,49.6,6,49.6,7,49.575,157.7647,49.6,5.12
49.93,15,49.93,9,49.93,8,49.905,129.1765,49.93,0
50.26,11,50.26,11,50.26,6,50.235,118.5882,50.26,0
50.59,4,50.59,8,50.59,6,50.565,88.94118,50.59,5.12
50.92,5,50.92,6,50.92,5,50.895,87.88235,50.92,0
51.25,4,51.25,14,51.25,6,51.225,59.29412,51.25,5.12
51.58,6,51.58,7,51.58,3,51.555,50.82353,51.58,10.24
51.91,5,51.91,7,51.91,3,51.885,55.05882,51.91,0
52.24,4,52.24,6,52.24,9,52.215,50.82353,52.24,0
52.57,2,52.57,11,52.57,8,52.545,34.94118,52.57,0
52.9,1,52.9,6,52.9,13,52.875,46.58823,52.9,0
53.23,3,53.23,8,53.23,11,53.205,36,53.23,0
53.56,4,53.56,7,53.56,6,53.535,48.70588,53.56,5.12
53.89,4,53.89,12,53.89,9,53.865,58.23529,53.89,0
54.22,4,54.22,13,54.22,12,54.195,100.5882,54.22,20.48
54.55,6,54.55,42,54.55,36,54.525,115.4118,54.55,25.6
54.88,79,54.88,124,54.88,31,54.855,74.11765,54.88,102.4
55.21,17,55.21,20,55.21,10,55.185,40.23529,55.21,25.6
55.54,2,55.54,8,55.54,6,55.515,22.23529,55.54,0
55.87,1,55.87,13,55.87,7,55.845,14.82353,55.87,5.12
56.2,1,56.2,9,56.2,7,56.175,26.47059,56.2,5.12
56.53,1,56.53,10,56.53,8,56.505,32.82353,56.53,5.12
56.86,2,56.86,7,56.86,10,56.835,14.82353,56.86,5.12
57.19,2,57.19,6,57.19,4,57.165,18,57.19,10.24
57.52,2,57.52,9,57.52,4,57.495,12.70588,57.52,10.24
57.85,1,57.85,9,57.85,7,57.825,21.17647,57.85,5.12
58.18,0,58.18,5,58.18,5,58.155,12.70588,58.18,5.12
58.51,2,58.51,7,58.51,5,58.485,19.05882,58.51,10.24
58.84,3,58.84,8,58.84,6,58.815,4.235294,58.84,0
59.17,1,59.17,9,59.17,6,59.145,11.64706,59.17,0
59.5,1,59.5,6,59.5,8,59.475,14.82353,59.5,0
59.83,2,59.83,18,59.83,7,59.805,9.529411,59.83,0
,,60.16,4,60.16,6,,,,
,,60.49,6,60.49,7,,,,
,,60.82,5,60.82,5,,,,
,,61.15,5,61.15,3,,,,
,,61.48,7,61.48,6,,,,
,,61.81,7,61.81,4,,,,
,,62.14,5,62.14,8,,,,
,,62.47,8,62.47,3,,,,
,,62.8,7,62.8,7,,,,
,,63.13,11,63.13,8,,,,
,,63.46,16,63.46,5,,,,
,,63.79,14,63.79,10,,,,
,,64.12,13,64.12,9,,,,
,,64.45,6,64.45,6,,,,
,,64.78,6,64.78,2,,,,
,,65.11,5,65.11,5,,,,
,,65.44,7,65.44,8,,,,
,,65.77,6,65.77,7,,,,
,,66.1,13,66.1,2,,,,
,,66.43,7,66.43,5,,,,
,,66.76,6,66.76,3,,,,
,,67.09,8,67.09,3,,,,
,,67.42,7,67.42,6,,,,
,,67.75,6,67.75,5,,,,
,,68.08,8,68.08,5,,,,
,,68.41,4,68.41,7,,,,
,,68.74,12,68.74,2,,,,
,,69.07,8,69.07,6,,,,
,,69.4,8,69.4,2,,,,
,,69.73,7,69.73,3,,,,
,,70.06,4,70.06,9,,,,
,,70.39,7,70.39,8,,,,
,,70.72,7,70.72,6,,,,
,,71.05,12,71.05,7,,,,
,,71.38,12,71.38,10,,,,
,,71.71,8,71.71,8,,,,
,,72.04,11,72.04,15,,,,
,,72.37,51,72.37,17,,,,
,,72.7,37,72.7,17,,,,
,,73.03,10,73.03,12,,,,
,,73.36,10,73.36,2,,,,
,,73.69,8,73.69,9,,,,
,,74.02,8,74.02,8,,,,
,,74.35,10,74.35,7,,,,
,,74.68,10,74.68,7,,,,
,,75.01,6,75.01,5,,,,
,,75.34,5,75.34,6,,,,
,,75.67,10,75.67,7,,,,
,,76,3,76,13,,,,
,,76.33,7,76.33,3,,,,
,,76.66,4,76.66,1,,,,
,,76.99,8,76.99,4,,,,
,,77.32,11,77.32,7,,,,
,,77.65,14,77.65,4,,,,
,,77.98,8,77.98,2,,,,
,,78.31,10,78.31,3,,,,
,,78.64,10,78.64,9,,,,
,,78.97,11,78.97,2,,,,
,,79.3,6,79.3,12,,,,
,,79.63,15,79.63,4,,,,
,,79.96,4,79.96,4,,,,
,,80.29,7,80.29,3,,,,
,,80.62,4,80.62,4,,,,
,,80.95,6,80.95,5,,,,
,,81.28,11,81.28,4,,,,
,,81.61,9,81.61,6,,,,
,,81.94,28,81.94,19,,,,
,,82.27,33,82.27,13,,,,
,,82.6,14,82.6,9,,,,
,,82.93,10,82.93,5,,,,
,,83.26,8,83.26,7,,,,
,,83.59,6,83.59,2,,,,
,,83.92,10,83.92,5,,,,
,,84.25,6,84.25,3,,,,
,,84.58,4,84.58,12,,,,
,,84.91,8,84.91,4,,,,
,,85.24,5,85.24,12,,,,
,,85.57,11,85.57,10,,,,
,,85.9,8,85.9,4,,,,
,,86.23,8,86.23,4,,,,
,,86.56,7,86.56,4,,,,
,,86.89,10,86.89,3,,,,
,,87.22,6,87.22,5,,,,
,,87.55,7,87.55,5,,,,
,,87.88,9,87.88,7,,,,
,,88.21,8,88.21,5,,,,
,,88.54,11,88.54,7,,,,
,,88.87,5,88.87,8,,,,
,,89.2,7,89.2,5,,,,
,,89.53,6,89.53,5,,,,
,,89.86,6,89.86,3,,,,
,,90.19,6,90.19,7,,,,
,,90.52,11,90.52,7,,,,
,,90.85,8,90.85,7,,,,
,,91.18,19,91.18,1,,,,
,,91.51,13,91.51,3,,,,
,,91.84,10,91.84,7,,,,
,,92.17,15,92.17,8,,,,
,,92.5,78,92.5,22,,,,
,,92.83,43,92.83,20,,,,
,,93.16,15,93.16,14,,,,
,,93.49,11,93.49,5,,,,
,,93.82,7,93.82,7,,,,
,,94.15,9,94.15,8,,,,
,,94.48,6,94.48,7,,,,
,,94.81,9,94.81,3,,,,
,,95.14,6,95.14,6,,,,
,,95.47,10,95.47,8,,,,
,,95.8,11,95.8,5,,,,
,,96.13,8,96.13,1,,,,
,,96.46,8,96.46,5,,,,
,,96.79,7,96.79,3,,,,
,,97.12,12,97.12,2,,,,
,,97.45,7,97.45,5,,,,
,,97.78,12,97.78,2,,,,
,,98.11,12,98.11,6,,,,
,,98.44,9,98.44,7,,,,
,,98.77,8,98.77,6,,,,
,,99.1,5,99.1,8,,,,
,,99.43,6,99.43,2,,,,
,,99.76,3,99.76,4,,,,
,,100,5,100,3,,,,