Folder: YBCO/Data/Gd (20 nm)

Note: README.md
# YBCO

This is the archive containing the data and analysis that eventually was published as an article you can find here: https://pubs.acs.org/doi/10.1021/acsami.9b18820

DOI: 10.1021/acsami.9b18820

Please cite the article above if you use any results here.

File: Gd (20 nm) XRD-LOW INTENSITY.xy
10	2
10.31	3
10.62	1
10.93	1
11.24	4
11.55	3
11.86	1
12.17	3
12.48	4
12.79	2
13.1	2
13.41	3
13.72	2
14.03	10
14.34	3
14.65	3
14.96	2
15.27	5
15.58	3
15.89	2
16.2	1
16.51	1
16.82	1
17.13	7
17.44	7
17.75	4
18.06	5
18.37	4
18.68	5
18.99	3
19.3	6
19.61	3
19.92	5
20.23	4
20.54	4
20.85	4
21.16	3
21.47	1
21.78	5
22.09	10
22.4	2
22.71	224
23.02	7
23.33	5
23.64	3
23.95	3
24.26	3
24.57	5
24.88	2
25.19	2
25.5	4
25.81	2
26.12	5
26.43	3
26.74	1
27.05	1
27.36	7
27.67	2
27.98	1
28.29	2
28.6	2
28.91	2
29.22	1
29.53	0
29.84	4
30.15	4
30.46	2
30.77	2
31.08	0
31.39	3
31.7	4
32.01	1
32.32	1
32.63	2
32.94	1
33.25	1
33.56	6
33.87	2
34.18	1
34.49	3
34.8	5
35.11	2
35.42	2
35.73	0
36.04	1
36.35	4
36.66	1
36.97	5
37.28	1
37.59	6
37.9	2
38.21	1
38.52	4
38.83	3
39.14	3
39.45	1
39.76	1
40.07	0
40.38	2
40.69	3
41	1
41.31	0
41.62	1
41.93	1
42.24	1
42.55	1
42.86	3
43.17	1
43.48	1
43.79	0
44.1	6
44.41	3
44.72	2
45.03	5
45.34	0
45.65	7
45.96	5
46.27	55
46.58	170
46.89	7
47.2	3
47.51	0
47.82	1
48.13	2
48.44	7
48.75	1
49.06	5
49.37	3
49.68	2
49.99	2
50.3	3
50.61	1
50.92	1
51.23	2
51.54	0
51.85	1
52.16	1
52.47	0
52.78	2
53.09	1
53.4	2
53.71	4
54.02	4
54.33	3
54.64	3
54.95	1
55.26	2
55.57	2
55.88	2
56.19	2
56.5	2
56.81	1
57.12	1
57.43	0
57.74	1
58.05	1
58.36	0
58.67	2
58.98	1
59.29	0
59.6	1
59.91	1
60.22	1
60.53	5
60.84	0
61.15	1
61.46	1
61.77	1
62.08	0
62.39	2
62.7	0
63.01	1
63.32	4
63.63	2
63.94	3
64.25	1
64.56	2
64.87	0
65.18	2
65.49	2
65.8	1
66.11	1
66.42	0
66.73	0
67.04	1
67.35	1
67.66	1
67.97	0
68.28	0
68.59	3
68.9	1
69.21	1
69.52	0
69.83	3
70.14	0
70.45	2
70.76	2
71.07	3
71.38	2
71.69	2
72	0
72.31	0
72.62	30
72.93	1
73.24	1
73.55	2
73.86	1
74.17	0
74.48	3
74.79	1
75.1	0
75.41	0
75.72	2
76.03	2
76.34	1
76.65	1
76.96	3
77.27	1
77.58	2
77.89	0
78.2	0
78.51	1
78.82	0
79.13	3
79.44	2
79.75	2
80.06	0
80.37	0
80.68	1
80.99	4
81.3	1
81.61	0
81.92	1
82.23	0
82.54	2
82.85	3
83.16	1
83.47	4
83.78	1
84.09	0
84.4	2
84.71	0
85.02	1
85.33	2
85.64	3
85.95	2
86.26	1
86.57	3
86.88	1
87.19	2
87.5	0
87.81	1
88.12	1
88.43	2
88.74	1
89.05	1
89.36	0
89.67	2
89.98	1
90.29	0
90.6	4
90.91	1
91.22	1
91.53	1
91.84	3
92.15	2
92.46	0
92.77	1
93.08	3
93.39	2
93.7	1
94.01	0
94.32	1
94.63	1
94.94	2
95.25	1
95.56	2
95.87	3
96.18	2
96.49	1
96.8	3
97.11	4
97.42	3
97.73	0
98.04	2
98.35	2
98.66	0
98.97	0
99.28	3
99.59	1
99.9	2
100	0